	Silence-Sony		
Frequency (Hz)	Level (dB)

11.139739	-91.71
11.301211	-91.40
11.465025	-91.08
11.631213	-90.75
11.799810	-90.37
11.970850	-90.00
12.144370	-89.63
12.320405	-89.27
12.498992	-88.90
12.680168	-88.50
12.863969	-88.13
13.050435	-87.79
13.239604	-87.45
13.431515	-87.09
13.626208	-86.78
13.823722	-86.49
14.024100	-86.18
14.227382	-85.94
14.433611	-85.71
14.642829	-85.51
14.855080	-85.35
15.070408	-85.21
15.288856	-85.11
15.510471	-85.03
15.735299	-84.97
15.963385	-84.93
16.194778	-84.91
16.429525	-84.90
16.667674	-84.91
16.909275	-84.93
17.154379	-84.97
17.403035	-85.05
17.655296	-85.15
17.911213	-85.27
18.170840	-85.43
18.434230	-85.62
18.701438	-85.80
18.972519	-85.98
19.247530	-86.12
19.526527	-86.22
19.809568	-86.26
20.096712	-86.22
20.388018	-86.10
20.683546	-85.89
20.983358	-85.63
21.287517	-85.35
21.596084	-85.10
21.909123	-84.93
22.226701	-84.88
22.548881	-84.95
22.875732	-85.13
23.207320	-85.37
23.543715	-85.61
23.884986	-85.85
24.231204	-86.05
24.582441	-86.23
24.938768	-86.42
25.300261	-86.60
25.666993	-86.80
26.039042	-86.94
26.416483	-87.01
26.799396	-86.97
27.187858	-86.81
27.581952	-86.57
27.981758	-86.29
28.387360	-86.01
28.798840	-85.79
29.216286	-85.69
29.639782	-85.77
30.069416	-86.04
30.505279	-86.47
30.947459	-86.98
31.396049	-87.49
31.851141	-87.84
32.312830	-87.84
32.781212	-87.38
33.256382	-86.59
33.738440	-85.64
34.227486	-84.70
34.723620	-84.00
35.226947	-83.68
35.737568	-83.82
36.255592	-84.23
36.781124	-84.52
37.314274	-84.29
37.855152	-83.50
38.403871	-82.36
38.960543	-81.11
39.525284	-79.93
40.098211	-78.93
40.679443	-78.23
41.269100	-77.93
41.867304	-78.07
42.474180	-78.52
43.089852	-79.17
43.714448	-80.01
44.348098	-81.17
44.990933	-82.75
45.643086	-84.48
46.304692	-85.69
46.975888	-85.82
47.656813	-85.09
48.347609	-84.17
49.048418	-83.43
49.759385	-82.86
50.480657	-82.42
51.212385	-82.11
51.954719	-81.94
52.707813	-81.92
53.471824	-82.02
54.246909	-82.19
55.033230	-82.42
55.830948	-82.92
56.640229	-83.98
57.461241	-85.58
58.294153	-87.41
59.139139	-88.62
59.996373	-88.65
60.866033	-88.34
61.748299	-88.33
62.643354	-88.80
63.551382	-89.35
64.472573	-89.24
65.407116	-88.39
66.355206	-88.28
67.317038	-89.63
68.292813	-92.13
69.282731	-95.00
70.286999	-96.46
71.305824	-97.33
72.339416	-98.29
73.387991	-98.53
74.451765	-97.51
75.530959	-96.47
76.625796	-96.33
77.736503	-97.13
78.863310	-97.98
80.006450	-98.19
81.166160	-98.05
82.342680	-98.36
83.536255	-99.46
84.747130	-100.67
85.975557	-101.28
87.221791	-101.44
88.486089	-100.78
89.768713	-99.42
91.069929	-98.39
92.390007	-97.74
93.729219	-97.10
95.087844	-97.02
96.466162	-97.89
97.864459	-99.06
99.283025	-99.80
100.722153	-100.22
102.182141	-100.09
103.663293	-99.18
105.165914	-97.99
106.690316	-98.07
108.236814	-98.90
109.805729	-98.79
111.397386	-98.14
113.012114	-97.64
114.650248	-98.84
116.312128	-100.57
117.998096	-101.31
119.708503	-102.07
121.443703	-102.00
123.204054	-100.78
124.989923	-99.77
126.801678	-99.30
128.639694	-98.39
130.504354	-98.61
132.396041	-98.36
134.315150	-98.70
136.262076	-98.35
138.237223	-98.27
140.241000	-99.33
142.273823	-99.53
144.336111	-99.28
146.428293	-100.03
148.550802	-100.41
150.704076	-100.94
152.888563	-102.34
155.104715	-102.90
157.352990	-102.08
159.633854	-102.16
161.947780	-100.74
164.295247	-99.37
166.676741	-99.41
169.092755	-101.70
171.543790	-103.46
174.030353	-102.68
176.552959	-102.68
179.112131	-104.04
181.708398	-105.51
184.342299	-100.16
187.014379	-101.18
189.725192	-107.02
192.475298	-109.72
195.265267	-109.53
198.095678	-107.90
200.967116	-106.30
203.880176	-104.44
206.835462	-102.81
209.833585	-101.96
212.875166	-103.01
215.960836	-105.31
219.091233	-105.64
222.267006	-103.28
225.488813	-103.09
228.757320	-104.06
232.073205	-103.53
235.437154	-105.12
238.849865	-107.66
242.312043	-108.22
245.824407	-109.77
249.387683	-110.49
253.002609	-110.33
256.669935	-109.24
260.390419	-107.41
264.164832	-108.88
267.993956	-109.97
271.878584	-111.72
275.819521	-111.90
279.817582	-111.73
283.873596	-110.26
287.988403	-109.96
292.162855	-110.10
296.397817	-111.78
300.694165	-110.29
305.052789	-109.88
309.474593	-111.58
313.960491	-110.77
318.511414	-108.31
323.128303	-108.07
327.812115	-108.52
332.563820	-108.17
337.384402	-110.36
342.274859	-106.94
347.236204	-106.22
352.269465	-107.50
357.375684	-108.04
362.555919	-103.31
367.811243	-108.86
373.142743	-109.42
378.551525	-113.13
384.038708	-111.71
389.605429	-111.12
395.252841	-117.20
400.982113	-116.09
406.794432	-115.89
412.691002	-112.61
418.673044	-111.08
424.741797	-112.03
430.898518	-110.53
437.144481	-108.43
443.480981	-107.90
449.909331	-109.26
456.430860	-110.37
463.046920	-111.93
469.758882	-111.57
476.568134	-109.33
483.476089	-109.53
490.484175	-106.86
497.593845	-105.40
504.806572	-104.85
512.123848	-103.06
519.547190	-103.54
527.078134	-101.59
534.718242	-103.46
542.469094	-106.01
550.332296	-107.69
558.309477	-104.93
566.402289	-104.29
574.612408	-104.22
582.941535	-109.38
591.391394	-107.83
599.963735	-101.33
608.660334	-100.34
617.482992	-103.75
626.433537	-102.36
635.513821	-101.88
644.725726	-104.35
654.071160	-104.93
663.552057	-102.91
673.170382	-107.06
682.928127	-109.42
692.827312	-112.40
702.869989	-110.80
713.058235	-110.89
723.394163	-111.10
733.879912	-109.55
744.517654	-110.71
755.309592	-114.28
766.257962	-112.46
777.365030	-111.39
788.633098	-111.86
800.064499	-107.58
811.661600	-108.36
823.426804	-108.51
835.362547	-112.97
847.471301	-111.83
859.755574	-111.68
872.217910	-113.36
884.860890	-113.17
897.687132	-111.74
910.699294	-115.31
923.900070	-115.10
937.292194	-111.84
950.878439	-111.42
964.661620	-116.63
978.644591	-115.04
992.830248	-116.80
1007.221529	-111.16
1021.821414	-111.36
1036.632928	-106.31
1051.659138	-108.19
1066.903156	-109.83
1082.368140	-108.85
1098.057291	-110.57
1113.973860	-113.23
1130.121143	-115.38
1146.502484	-116.40
1163.121276	-116.19
1179.980961	-115.87
1197.085030	-111.22
1214.437027	-111.25
1232.040544	-113.00
1249.899229	-111.15
1268.016778	-114.24
1286.396945	-117.41
1305.043536	-115.58
1323.960414	-119.35
1343.151496	-117.83
1362.620756	-116.06
1382.372227	-116.61
1402.410000	-115.97
1422.738225	-115.67
1443.361112	-116.10
1464.282931	-117.05
1485.508017	-120.16
1507.040765	-120.91
1528.885634	-123.05
1551.047150	-123.45
1573.529901	-122.77
1596.338544	-121.33
1619.477804	-116.82
1642.952471	-118.10
1666.767409	-116.02
1690.927550	-119.90
1715.437896	-121.63
1740.303526	-122.48
1765.529587	-123.77
1791.121306	-125.41
1817.083982	-123.47
1843.422992	-122.68
1870.143792	-122.24
1897.251916	-122.83
1924.752977	-120.57
1952.652672	-123.68
1980.956779	-125.55
2009.671159	-125.01
2038.801761	-123.79
2068.354617	-122.99
2098.335847	-124.08
2128.751662	-124.91
2159.608360	-125.69
2190.912333	-123.48
2222.670063	-123.30
2254.888128	-122.43
2287.573200	-122.33
2320.732050	-123.37
2354.371544	-124.48
2388.498649	-122.70
2423.120434	-124.14
2458.244069	-124.46
2493.876828	-123.93
2530.026092	-124.31
2566.699346	-126.16
2603.904187	-124.49
2641.648320	-124.95
2679.939562	-125.15
2718.785844	-125.58
2758.195211	-125.09
2798.175824	-124.61
2838.735965	-123.75
2879.884033	-123.88
2921.628551	-123.08
2963.978165	-121.92
3006.941645	-122.80
3050.527890	-125.06
3094.745927	-125.50
3139.604913	-125.56
3185.114139	-119.83
3231.283032	-125.74
3278.121151	-125.79
3325.638200	-125.57
3373.844017	-125.41
3422.748588	-125.20
3472.362041	-125.06
3522.694651	-125.31
3573.756843	-124.73
3625.559192	-124.18
3678.112427	-123.79
3731.427432	-123.61
3785.515249	-123.15
3840.387080	-122.72
3896.054290	-121.94
3952.528408	-121.19
4009.821129	-119.91
4067.944321	-119.09
4126.910020	-117.95
4186.730440	-117.44
4247.417969	-116.99
4308.985176	-117.36
4371.444813	-117.43
4434.809815	-117.18
4499.093306	-116.84
4564.308599	-116.27
4630.469202	-116.30
4697.588817	-116.33
4765.681344	-116.75
4834.760887	-117.07
4904.841752	-117.35
4975.938453	-118.06
5048.065717	-118.51
5121.238480	-118.68
5195.471897	-119.00
5270.781343	-119.28
5347.182415	-120.00
5424.690937	-120.26
5503.322961	-120.40
5583.094772	-120.52
5664.022893	-121.12
5746.124083	-120.93
5829.415347	-121.10
5913.913936	-121.04
5999.637349	-121.08
6086.603340	-120.75
6174.829922	-120.61
6264.335367	-120.42
6355.138211	-119.47
6447.257262	-119.37
6540.711597	-119.60
6635.520573	-119.31
6731.703824	-118.99
6829.281272	-119.06
6928.273125	-119.08
7028.699885	-119.04
7130.582353	-119.30
7233.941627	-119.25
7338.799116	-119.14
7445.176537	-119.13
7553.095920	-119.28
7662.579617	-119.52
7773.650302	-120.14
7886.330981	-120.34
8000.644989	-120.72
8116.616003	-120.94
8234.268041	-121.15
8353.625470	-121.74
8474.713009	-121.79
8597.555737	-121.59
8722.179097	-121.90
8848.608897	-121.86
8976.871324	-122.03
9106.992942	-121.71
9239.000700	-122.23
9372.921937	-122.16
9508.784391	-121.93
9646.616199	-121.77
9786.445908	-121.51
9928.302478	-121.53
10072.215288	-121.57
10218.214144	-121.85
10366.329284	-121.99
10516.591384	-121.99
10669.031565	-122.03
10823.681397	-122.08
10980.572911	-122.22
11139.738600	-122.14
11301.211429	-122.10
11465.024840	-122.53
11631.212760	-122.81
11799.809609	-122.89
11970.850305	-122.88
12144.370271	-122.85
12320.405445	-123.02
12498.992285	-122.95
12680.167779	-122.86
12863.969449	-122.94
13050.435363	-122.85
13239.604139	-123.08
13431.514956	-123.02
13626.207560	-122.99
13823.722274	-122.95
14024.100004	-123.00
14227.382252	-122.90
14433.611118	-122.84
14642.829314	-122.92
14855.080172	-122.53
15070.407650	-122.63
15288.856344	-122.68
15510.471498	-122.61
15735.299010	-122.61
15963.385443	-122.69
16194.778036	-122.64
16429.524714	-122.57
16667.674093	-122.49
16909.275497	-122.52
17154.378963	-122.50
17403.035256	-122.42
17655.295873	-122.40
17911.213060	-122.45
18170.839820	-122.29
18434.229924	-122.26
18701.437922	-122.20
18972.519156	-122.17
19247.529769	-122.03
19526.526718	-122.03
19809.567786	-122.03
20096.711592	-121.90
20388.017608	-121.86
20683.546166	-121.86
20983.358471	-121.77
21287.516618	-121.66
21596.083601	-121.66
21909.123326	-121.55
22226.700627	-121.53