	Sony-H		
Frequency (Hz)	Level (dB)

11.139739	-64.81
11.301211	-64.54
11.465025	-64.32
11.631213	-64.16
11.799810	-64.07
11.970850	-64.06
12.144370	-64.12
12.320405	-64.25
12.498992	-64.44
12.680168	-64.74
12.863969	-65.05
13.050435	-65.39
13.239604	-65.75
13.431515	-66.16
13.626208	-66.48
13.823722	-66.77
14.024100	-67.03
14.227382	-67.17
14.433611	-67.24
14.642829	-67.20
14.855080	-67.06
15.070408	-66.83
15.288856	-66.56
15.510471	-66.25
15.735299	-65.98
15.963385	-65.75
16.194778	-65.58
16.429525	-65.48
16.667674	-65.46
16.909275	-65.51
17.154379	-65.65
17.403035	-65.92
17.655296	-66.24
17.911213	-66.58
18.170840	-66.91
18.434230	-67.26
18.701438	-67.71
18.972519	-68.25
19.247530	-68.15
19.526527	-66.28
19.809568	-63.21
20.096712	-60.15
20.388018	-57.44
20.683546	-54.91
20.983358	-52.31
21.287517	-49.58
21.596084	-46.86
21.909123	-44.34
22.226701	-42.17
22.548881	-40.38
22.875732	-38.96
23.207320	-37.99
23.543715	-37.39
23.884986	-37.10
24.231204	-37.12
24.582441	-37.39
24.938768	-37.97
25.300261	-38.81
25.666993	-40.14
26.039042	-41.91
26.416483	-44.50
26.799396	-47.79
27.187858	-52.03
27.581952	-56.63
27.981758	-59.60
28.387360	-61.38
28.798840	-63.51
29.216286	-65.79
29.639782	-67.21
30.069416	-68.45
30.505279	-70.01
30.947459	-71.02
31.396049	-71.11
31.851141	-70.89
32.312830	-70.58
32.781212	-70.24
33.256382	-69.67
33.738440	-68.50
34.227486	-66.87
34.723620	-65.46
35.226947	-64.47
35.737568	-63.91
36.255592	-63.65
36.781124	-63.50
37.314274	-62.84
37.855152	-60.77
38.403871	-57.94
38.960543	-55.62
39.525284	-54.35
40.098211	-54.09
40.679443	-54.69
41.269100	-56.03
41.867304	-58.28
42.474180	-61.91
43.089852	-67.43
43.714448	-72.92
44.348098	-73.40
44.990933	-72.17
45.643086	-70.24
46.304692	-68.15
46.975888	-66.40
47.656813	-65.13
48.347609	-64.78
49.048418	-65.72
49.759385	-67.84
50.480657	-69.77
51.212385	-70.22
51.954719	-70.19
52.707813	-70.49
53.471824	-71.46
54.246909	-73.01
55.033230	-74.18
55.830948	-73.78
56.640229	-69.22
57.461241	-63.38
58.294153	-58.85
59.139139	-55.53
59.996373	-54.04
60.866033	-54.91
61.748299	-58.05
62.643354	-62.75
63.551382	-68.32
64.472573	-70.58
65.407116	-70.11
66.355206	-70.38
67.317038	-71.49
68.292813	-72.60
69.282731	-72.57
70.286999	-71.58
71.305824	-70.85
72.339416	-71.16
73.387991	-72.74
74.451765	-75.01
75.530959	-76.36
76.625796	-75.31
77.736503	-73.69
78.863310	-72.97
80.006450	-73.40
81.166160	-74.17
82.342680	-73.75
83.536255	-72.96
84.747130	-73.26
85.975557	-72.11
87.221791	-71.72
88.486089	-72.82
89.768713	-74.10
91.069929	-75.66
92.390007	-77.86
93.729219	-79.42
95.087844	-79.14
96.466162	-70.74
97.864459	-60.57
99.283025	-54.53
100.722153	-54.48
102.182141	-59.37
103.663293	-71.70
105.165914	-79.37
106.690316	-78.36
108.236814	-76.17
109.805729	-78.05
111.397386	-79.70
113.012114	-77.78
114.650248	-77.41
116.312128	-77.23
117.998096	-76.43
119.708503	-75.03
121.443703	-73.87
123.204054	-76.56
124.989923	-78.59
126.801678	-78.63
128.639694	-76.21
130.504354	-73.20
132.396041	-74.73
134.315150	-77.75
136.262076	-78.36
138.237223	-78.08
140.241000	-77.07
142.273823	-77.45
144.336111	-75.86
146.428293	-75.79
148.550802	-74.84
150.704076	-76.65
152.888563	-78.50
155.104715	-77.60
157.352990	-75.68
159.633854	-76.61
161.947780	-76.81
164.295247	-78.26
166.676741	-76.03
169.092755	-75.08
171.543790	-77.24
174.030353	-78.03
176.552959	-68.04
179.112131	-56.59
181.708398	-58.40
184.342299	-72.22
187.014379	-78.15
189.725192	-81.35
192.475298	-80.83
195.265267	-77.45
198.095678	-75.62
200.967116	-78.90
203.880176	-77.20
206.835462	-76.08
209.833585	-77.41
212.875166	-77.60
215.960836	-77.51
219.091233	-77.41
222.267006	-73.82
225.488813	-74.20
228.757320	-77.24
232.073205	-78.10
235.437154	-74.78
238.849865	-75.60
242.312043	-78.54
245.824407	-76.49
249.387683	-79.10
253.002609	-75.62
256.669935	-74.02
260.390419	-77.20
264.164832	-78.26
267.993956	-78.29
271.878584	-77.52
275.819521	-74.67
279.817582	-80.22
283.873596	-80.25
287.988403	-81.76
292.162855	-79.51
296.397817	-79.10
300.694165	-80.86
305.052789	-80.04
309.474593	-84.75
313.960491	-85.20
318.511414	-82.18
323.128303	-83.04
327.812115	-81.23
332.563820	-79.85
337.384402	-63.15
342.274859	-61.92
347.236204	-83.14
352.269465	-80.75
357.375684	-79.30
362.555919	-81.40
367.811243	-83.66
373.142743	-77.40
378.551525	-76.27
384.038708	-79.82
389.605429	-78.10
395.252841	-78.85
400.982113	-77.76
406.794432	-78.45
412.691002	-79.14
418.673044	-79.36
424.741797	-76.84
430.898518	-78.76
437.144481	-81.08
443.480981	-78.21
449.909331	-79.65
456.430860	-77.35
463.046920	-81.74
469.758882	-84.18
476.568134	-82.54
483.476089	-82.41
490.484175	-81.72
497.593845	-77.50
504.806572	-81.00
512.123848	-82.92
519.547190	-84.34
527.078134	-86.47
534.718242	-82.33
542.469094	-84.59
550.332296	-77.89
558.309477	-82.75
566.402289	-80.75
574.612408	-81.54
582.941535	-81.64
591.391394	-82.51
599.963735	-64.13
608.660334	-83.83
617.482992	-84.29
626.433537	-82.33
635.513821	-81.66
644.725726	-82.07
654.071160	-83.86
663.552057	-82.71
673.170382	-81.80
682.928127	-81.25
692.827312	-82.88
702.869989	-82.43
713.058235	-80.84
723.394163	-82.80
733.879912	-82.75
744.517654	-82.35
755.309592	-83.22
766.257962	-85.31
777.365030	-83.88
788.633098	-83.11
800.064499	-83.11
811.661600	-85.57
823.426804	-85.30
835.362547	-85.61
847.471301	-86.32
859.755574	-87.07
872.217910	-86.83
884.860890	-86.83
897.687132	-88.11
910.699294	-84.67
923.900070	-84.81
937.292194	-86.75
950.878439	-84.75
964.661620	-83.66
978.644591	-81.53
992.830248	-66.58
1007.221529	-66.26
1021.821414	-79.52
1036.632928	-80.46
1051.659138	-79.81
1066.903156	-80.50
1082.368140	-80.18
1098.057291	-86.87
1113.973860	-84.30
1130.121143	-85.54
1146.502484	-85.02
1163.121276	-85.43
1179.980961	-86.56
1197.085030	-84.91
1214.437027	-86.49
1232.040544	-87.02
1249.899229	-87.55
1268.016778	-86.86
1286.396945	-85.44
1305.043536	-86.77
1323.960414	-87.69
1343.151496	-89.95
1362.620756	-88.06
1382.372227	-88.87
1402.410000	-90.73
1422.738225	-91.72
1443.361112	-93.45
1464.282931	-92.15
1485.508017	-92.06
1507.040765	-90.67
1528.885634	-91.57
1551.047150	-92.46
1573.529901	-93.86
1596.338544	-95.85
1619.477804	-94.19
1642.952471	-97.85
1666.767409	-97.49
1690.927550	-98.83
1715.437896	-101.24
1740.303526	-101.02
1765.529587	-99.64
1791.121306	-98.37
1817.083982	-98.55
1843.422992	-100.17
1870.143792	-101.08
1897.251916	-74.23
1924.752977	-101.85
1952.652672	-104.10
1980.956779	-104.05
2009.671159	-106.21
2038.801761	-105.62
2068.354617	-105.61
2098.335847	-106.06
2128.751662	-105.48
2159.608360	-107.44
2190.912333	-107.95
2222.670063	-107.38
2254.888128	-108.37
2287.573200	-110.27
2320.732050	-109.45
2354.371544	-107.39
2388.498649	-107.66
2423.120434	-106.31
2458.244069	-108.48
2493.876828	-108.87
2530.026092	-111.33
2566.699346	-111.36
2603.904187	-111.04
2641.648320	-110.46
2679.939562	-110.83
2718.785844	-111.11
2758.195211	-110.79
2798.175824	-110.50
2838.735965	-112.54
2879.884033	-111.97
2921.628551	-113.76
2963.978165	-113.12
3006.941645	-111.75
3050.527890	-111.09
3094.745927	-110.58
3139.604913	-111.42
3185.114139	-110.51
3231.283032	-112.73
3278.121151	-112.27
3325.638200	-112.25
3373.844017	-112.54
3422.748588	-114.01
3472.362041	-112.43
3522.694651	-98.78
3573.756843	-115.23
3625.559192	-114.74
3678.112427	-113.52
3731.427432	-115.80
3785.515249	-116.61
3840.387080	-117.24
3896.054290	-117.00
3952.528408	-114.68
4009.821129	-114.45
4067.944321	-113.90
4126.910020	-112.26
4186.730440	-112.69
4247.417969	-112.69
4308.985176	-112.36
4371.444813	-114.13
4434.809815	-113.24
4499.093306	-90.88
4564.308599	-113.47
4630.469202	-113.36
4697.588817	-113.92
4765.681344	-113.58
4834.760887	-114.62
4904.841752	-113.46
4975.938453	-113.27
5048.065717	-113.46
5121.238480	-113.98
5195.471897	-113.75
5270.781343	-114.15
5347.182415	-114.39
5424.690937	-114.62
5503.322961	-115.81
5583.094772	-116.43
5664.022893	-117.29
5746.124083	-117.43
5829.415347	-118.01
5913.913936	-117.24
5999.637349	-118.34
6086.603340	-117.24
6174.829922	-118.53
6264.335367	-118.14
6355.138211	-117.14
6447.257262	-115.76
6540.711597	-115.45
6635.520573	-114.48
6731.703824	-114.57
6829.281272	-114.63
6928.273125	-115.42
7028.699885	-116.28
7130.582353	-116.69
7233.941627	-117.04
7338.799116	-116.98
7445.176537	-116.87
7553.095920	-117.99
7662.579617	-117.80
7773.650302	-117.85
7886.330981	-119.09
8000.644989	-118.48
8116.616003	-119.09
8234.268041	-119.18
8353.625470	-119.51
8474.713009	-121.35
8597.555737	-120.87
8722.179097	-121.33
8848.608897	-121.23
8976.871324	-120.78
9106.992942	-120.02
9239.000700	-119.27
9372.921937	-118.67
9508.784391	-118.83
9646.616199	-118.66
9786.445908	-118.74
9928.302478	-119.71
10072.215288	-119.99
10218.214144	-121.18
10366.329284	-120.23
10516.591384	-120.57
10669.031565	-121.05
10823.681397	-120.77
10980.572911	-120.08
11139.738600	-121.21
11301.211429	-121.57
11465.024840	-121.32
11631.212760	-121.82
11799.809609	-121.55
11970.850305	-122.83
12144.370271	-122.44
12320.405445	-122.96
12498.992285	-122.64
12680.167779	-122.70
12863.969449	-122.70
13050.435363	-123.26
13239.604139	-123.05
13431.514956	-122.43
13626.207560	-122.42
13823.722274	-122.18
14024.100004	-122.59
14227.382252	-122.30
14433.611118	-122.47
14642.829314	-122.25
14855.080172	-121.96
15070.407650	-122.09
15288.856344	-121.87
15510.471498	-121.75
15735.299010	-122.15
15963.385443	-122.20
16194.778036	-121.94
16429.524714	-122.14
16667.674093	-122.33
16909.275497	-122.31
17154.378963	-122.24
17403.035256	-122.27
17655.295873	-121.97
17911.213060	-121.60
18170.839820	-121.41
18434.229924	-121.76
18701.437922	-122.43
18972.519156	-121.94
19247.529769	-121.89
19526.526718	-121.51
19809.567786	-121.59
20096.711592	-121.68
20388.017608	-122.29
20683.546166	-121.98
20983.358471	-121.67
21287.516618	-121.41
21596.083601	-121.96
21909.123326	-121.29
22226.700627	-121.60