	Bang-Sony		
Frequency (Hz)	Level (dB)

11.139739	-75.71
11.301211	-75.56
11.465025	-75.45
11.631213	-75.38
11.799810	-75.37
11.970850	-75.42
12.144370	-75.52
12.320405	-75.68
12.498992	-75.90
12.680168	-76.22
12.863969	-76.55
13.050435	-76.90
13.239604	-77.27
13.431515	-77.71
13.626208	-78.05
13.823722	-78.36
14.024100	-78.68
14.227382	-78.88
14.433611	-79.03
14.642829	-79.10
14.855080	-79.09
15.070408	-78.99
15.288856	-78.84
15.510471	-78.64
15.735299	-78.43
15.963385	-78.22
16.194778	-78.04
16.429525	-77.90
16.667674	-77.79
16.909275	-77.72
17.154379	-77.68
17.403035	-77.67
17.655296	-77.69
17.911213	-77.70
18.170840	-77.70
18.434230	-77.63
18.701438	-77.41
18.972519	-77.03
19.247530	-76.47
19.526527	-75.81
19.809568	-75.11
20.096712	-74.46
20.388018	-73.91
20.683546	-73.48
20.983358	-73.17
21.287517	-72.96
21.596084	-72.85
21.909123	-72.82
22.226701	-72.85
22.548881	-72.94
22.875732	-73.07
23.207320	-73.20
23.543715	-73.29
23.884986	-73.32
24.231204	-73.29
24.582441	-73.23
24.938768	-73.19
25.300261	-73.18
25.666993	-73.18
26.039042	-73.12
26.416483	-72.95
26.799396	-72.62
27.187858	-72.19
27.581952	-71.67
27.981758	-71.16
28.387360	-70.65
28.798840	-70.15
29.216286	-69.64
29.639782	-69.14
30.069416	-68.68
30.505279	-68.30
30.947459	-68.05
31.396049	-67.95
31.851141	-68.03
32.312830	-68.33
32.781212	-68.80
33.256382	-69.23
33.738440	-69.20
34.227486	-68.24
34.723620	-66.39
35.226947	-64.06
35.737568	-61.89
36.255592	-60.22
36.781124	-59.12
37.314274	-58.52
37.855152	-58.45
38.403871	-59.01
38.960543	-60.41
39.525284	-62.65
40.098211	-65.24
40.679443	-66.87
41.269100	-66.64
41.867304	-65.48
42.474180	-64.54
43.089852	-64.25
43.714448	-64.38
44.348098	-64.47
44.990933	-64.46
45.643086	-64.79
46.304692	-65.59
46.975888	-65.82
47.656813	-64.48
48.347609	-62.50
49.048418	-60.61
49.759385	-58.82
50.480657	-57.27
51.212385	-56.54
51.954719	-57.00
52.707813	-57.82
53.471824	-57.14
54.246909	-55.48
55.033230	-54.04
55.830948	-53.15
56.640229	-52.85
57.461241	-53.17
58.294153	-53.87
59.139139	-53.89
59.996373	-52.89
60.866033	-51.71
61.748299	-50.93
62.643354	-50.51
63.551382	-49.72
64.472573	-48.11
65.407116	-46.34
66.355206	-45.66
67.317038	-46.38
68.292813	-48.32
69.282731	-50.16
70.286999	-49.95
71.305824	-49.65
72.339416	-49.93
73.387991	-49.99
74.451765	-48.41
75.530959	-45.51
76.625796	-43.10
77.736503	-41.64
78.863310	-41.18
80.006450	-41.90
81.166160	-43.95
82.342680	-45.19
83.536255	-43.55
84.747130	-42.58
85.975557	-40.06
87.221791	-38.30
88.486089	-37.93
89.768713	-38.56
91.069929	-40.03
92.390007	-40.68
93.729219	-38.71
95.087844	-38.52
96.466162	-41.12
97.864459	-45.60
99.283025	-46.94
100.722153	-46.05
102.182141	-45.10
103.663293	-45.22
105.165914	-47.24
106.690316	-49.27
108.236814	-50.28
109.805729	-50.46
111.397386	-51.91
113.012114	-55.12
114.650248	-54.71
116.312128	-53.69
117.998096	-48.49
119.708503	-41.70
121.443703	-39.34
123.204054	-37.89
124.989923	-34.97
126.801678	-36.51
128.639694	-41.87
130.504354	-38.72
132.396041	-37.69
134.315150	-40.14
136.262076	-37.60
138.237223	-36.51
140.241000	-36.81
142.273823	-38.51
144.336111	-35.82
146.428293	-35.69
148.550802	-36.88
150.704076	-36.32
152.888563	-38.80
155.104715	-38.07
157.352990	-38.60
159.633854	-39.19
161.947780	-41.51
164.295247	-44.31
166.676741	-39.67
169.092755	-39.88
171.543790	-38.89
174.030353	-38.72
176.552959	-42.20
179.112131	-44.47
181.708398	-45.62
184.342299	-47.78
187.014379	-46.08
189.725192	-50.19
192.475298	-57.07
195.265267	-53.63
198.095678	-45.39
200.967116	-42.80
203.880176	-45.92
206.835462	-47.21
209.833585	-45.75
212.875166	-41.78
215.960836	-44.40
219.091233	-40.96
222.267006	-42.94
225.488813	-45.68
228.757320	-42.03
232.073205	-43.45
235.437154	-41.50
238.849865	-40.53
242.312043	-40.50
245.824407	-39.80
249.387683	-42.78
253.002609	-48.57
256.669935	-47.63
260.390419	-49.84
264.164832	-51.81
267.993956	-49.60
271.878584	-53.36
275.819521	-57.78
279.817582	-55.32
283.873596	-50.17
287.988403	-47.41
292.162855	-45.32
296.397817	-47.02
300.694165	-45.60
305.052789	-45.58
309.474593	-47.46
313.960491	-45.33
318.511414	-45.10
323.128303	-44.62
327.812115	-44.87
332.563820	-46.70
337.384402	-50.26
342.274859	-48.01
347.236204	-46.53
352.269465	-46.57
357.375684	-46.98
362.555919	-38.22
367.811243	-45.04
373.142743	-43.93
378.551525	-47.95
384.038708	-43.97
389.605429	-43.96
395.252841	-48.43
400.982113	-45.52
406.794432	-44.69
412.691002	-44.07
418.673044	-46.20
424.741797	-46.19
430.898518	-41.00
437.144481	-40.84
443.480981	-41.94
449.909331	-42.82
456.430860	-45.36
463.046920	-44.26
469.758882	-43.00
476.568134	-41.76
483.476089	-48.48
490.484175	-49.72
497.593845	-52.81
504.806572	-56.14
512.123848	-58.68
519.547190	-67.21
527.078134	-56.57
534.718242	-57.78
542.469094	-56.33
550.332296	-55.35
558.309477	-53.45
566.402289	-53.06
574.612408	-53.59
582.941535	-56.44
591.391394	-52.53
599.963735	-47.27
608.660334	-47.24
617.482992	-54.34
626.433537	-53.42
635.513821	-54.97
644.725726	-59.70
654.071160	-62.68
663.552057	-60.77
673.170382	-63.12
682.928127	-63.54
692.827312	-63.35
702.869989	-62.19
713.058235	-61.83
723.394163	-66.54
733.879912	-66.66
744.517654	-68.94
755.309592	-71.92
766.257962	-70.78
777.365030	-77.05
788.633098	-77.61
800.064499	-69.53
811.661600	-67.52
823.426804	-68.43
835.362547	-73.72
847.471301	-75.66
859.755574	-75.44
872.217910	-75.83
884.860890	-70.34
897.687132	-66.27
910.699294	-69.41
923.900070	-68.59
937.292194	-65.75
950.878439	-68.20
964.661620	-74.30
978.644591	-71.64
992.830248	-75.10
1007.221529	-67.08
1021.821414	-65.58
1036.632928	-60.73
1051.659138	-64.16
1066.903156	-67.78
1082.368140	-66.20
1098.057291	-66.35
1113.973860	-67.57
1130.121143	-66.42
1146.502484	-65.40
1163.121276	-66.46
1179.980961	-69.81
1197.085030	-68.52
1214.437027	-69.25
1232.040544	-71.54
1249.899229	-68.21
1268.016778	-69.51
1286.396945	-73.48
1305.043536	-70.68
1323.960414	-76.18
1343.151496	-79.30
1362.620756	-80.52
1382.372227	-83.51
1402.410000	-82.05
1422.738225	-78.78
1443.361112	-77.56
1464.282931	-75.48
1485.508017	-76.25
1507.040765	-74.18
1528.885634	-76.45
1551.047150	-77.19
1573.529901	-74.42
1596.338544	-73.03
1619.477804	-69.81
1642.952471	-73.02
1666.767409	-71.72
1690.927550	-74.50
1715.437896	-74.62
1740.303526	-75.32
1765.529587	-73.00
1791.121306	-75.20
1817.083982	-76.17
1843.422992	-75.81
1870.143792	-76.24
1897.251916	-76.00
1924.752977	-71.71
1952.652672	-73.30
1980.956779	-72.03
2009.671159	-74.51
2038.801761	-74.58
2068.354617	-79.98
2098.335847	-87.46
2128.751662	-86.01
2159.608360	-85.77
2190.912333	-84.78
2222.670063	-81.95
2254.888128	-78.71
2287.573200	-78.21
2320.732050	-79.98
2354.371544	-83.92
2388.498649	-89.52
2423.120434	-100.31
2458.244069	-89.87
2493.876828	-85.50
2530.026092	-84.45
2566.699346	-85.68
2603.904187	-92.85
2641.648320	-98.19
2679.939562	-94.62
2718.785844	-92.72
2758.195211	-94.98
2798.175824	-105.80
2838.735965	-97.34
2879.884033	-92.51
2921.628551	-95.06
2963.978165	-100.00
3006.941645	-93.94
3050.527890	-92.90
3094.745927	-95.55
3139.604913	-99.63
3185.114139	-102.07
3231.283032	-93.88
3278.121151	-95.36
3325.638200	-91.01
3373.844017	-93.26
3422.748588	-95.18
3472.362041	-93.80
3522.694651	-92.11
3573.756843	-97.36
3625.559192	-95.51
3678.112427	-97.78
3731.427432	-102.11
3785.515249	-100.35
3840.387080	-104.42
3896.054290	-99.97
3952.528408	-102.16
4009.821129	-100.81
4067.944321	-113.39
4126.910020	-105.90
4186.730440	-101.58
4247.417969	-99.81
4308.985176	-99.12
4371.444813	-104.63
4434.809815	-110.63
4499.093306	-105.29
4564.308599	-113.50
4630.469202	-107.95
4697.588817	-102.84
4765.681344	-106.27
4834.760887	-112.01
4904.841752	-107.15
4975.938453	-106.36
5048.065717	-104.67
5121.238480	-101.44
5195.471897	-99.39
5270.781343	-105.50
5347.182415	-106.08
5424.690937	-101.70
5503.322961	-101.39
5583.094772	-105.04
5664.022893	-106.94
5746.124083	-114.44
5829.415347	-109.81
5913.913936	-111.38
5999.637349	-111.30
6086.603340	-105.67
6174.829922	-109.00
6264.335367	-110.10
6355.138211	-110.32
6447.257262	-109.77
6540.711597	-113.49
6635.520573	-111.48
6731.703824	-111.07
6829.281272	-111.77
6928.273125	-117.00
7028.699885	-115.88
7130.582353	-118.03
7233.941627	-116.90
7338.799116	-114.42
7445.176537	-113.86
7553.095920	-113.31
7662.579617	-113.42
7773.650302	-113.84
7886.330981	-113.79
8000.644989	-114.77
8116.616003	-115.17
8234.268041	-119.03
8353.625470	-117.85
8474.713009	-117.11
8597.555737	-118.91
8722.179097	-117.95
8848.608897	-119.56
8976.871324	-120.59
9106.992942	-120.57
9239.000700	-122.13
9372.921937	-120.91
9508.784391	-121.28
9646.616199	-121.36
9786.445908	-120.94
9928.302478	-121.41
10072.215288	-120.91
10218.214144	-121.07
10366.329284	-121.97
10516.591384	-121.68
10669.031565	-121.54
10823.681397	-121.89
10980.572911	-122.28
11139.738600	-122.31
11301.211429	-121.82
11465.024840	-122.32
11631.212760	-122.61
11799.809609	-122.08
11970.850305	-122.61
12144.370271	-122.36
12320.405445	-123.21
12498.992285	-123.47
12680.167779	-122.85
12863.969449	-122.73
13050.435363	-122.70
13239.604139	-123.28
13431.514956	-122.19
13626.207560	-122.14
13823.722274	-121.71
14024.100004	-122.55
14227.382252	-122.89
14433.611118	-122.43
14642.829314	-122.46
14855.080172	-122.52
15070.407650	-122.60
15288.856344	-122.29
15510.471498	-122.30
15735.299010	-122.83
15963.385443	-122.84
16194.778036	-122.33
16429.524714	-121.87
16667.674093	-122.21
16909.275497	-122.37
17154.378963	-122.59
17403.035256	-122.31
17655.295873	-122.06
17911.213060	-122.37
18170.839820	-122.15
18434.229924	-122.11
18701.437922	-121.64
18972.519156	-121.76
19247.529769	-121.46
19526.526718	-121.83
19809.567786	-122.11
20096.711592	-121.67
20388.017608	-121.60
20683.546166	-121.43
20983.358471	-121.83
21287.516618	-121.26
21596.083601	-121.36
21909.123326	-120.79
22226.700627	-121.23